<?xml version="1.0" encoding="UTF-8"?>
<?xml-model href="http://hl7.org/fhir/STU3/bundle.sch" type="application/xml" schematypens="http://purl.oclc.org/dsdl/schematron"?>
<Bundle xmlns="http://hl7.org/fhir" xmlns:xsi="http://www.w3.org/2001/XMLSchema-instance" xsi:schemaLocation="http://hl7.org/fhir http://hl7.org/fhir/STU3/bundle.xsd">
    <type value="searchset"/>
    <total value="5"/>
    <entry>
        <fullUrl value="urn:uuid:59eb1f42-39d1-11e9-1996-020000000000"/>
        <resource>
            <Patient>
                <meta>
                    <profile value="http://fhir.nl/fhir/StructureDefinition/nl-core-patient"/>
                </meta>
                <name>
                    <extension url="http://hl7.org/fhir/StructureDefinition/humanname-assembly-order">
                        <valueCode value="NL1"/>
                    </extension>
                    <family value="van der Berken">
                        <extension url="http://hl7.org/fhir/StructureDefinition/humanname-own-prefix">
                            <valueString value="van der"/>
                        </extension>
                        <extension url="http://hl7.org/fhir/StructureDefinition/humanname-own-name">
                            <valueString value="Berken"/>
                        </extension>
                    </family>
                    <given value="Brooke">
                        <extension url="http://hl7.org/fhir/StructureDefinition/iso21090-EN-qualifier">
                            <valueCode value="BR"/>
                        </extension>
                    </given>
                    <given value="B.">
                        <extension url="http://hl7.org/fhir/StructureDefinition/iso21090-EN-qualifier">
                            <valueCode value="IN"/>
                        </extension>
                    </given>
                </name>
                <gender value="female"/>
                <birthDate value="1950-05-01"/>
            </Patient>
        </resource>
    </entry>
    <entry>
        <fullUrl value="urn:oid:2.16.528.1.1007.3.3.1234567"/>
        <resource>
            <Organization>
                <meta>
                    <profile value="http://fhir.nl/fhir/StructureDefinition/nl-core-organization"/>
                </meta>
                <identifier>
                    <system value="http://fhir.nl/fhir/NamingSystem/ura"/>
                    <value value="01234567"/>
                </identifier>
            </Organization>
        </resource>
    </entry>
    <entry>
        <fullUrl value="urn:oid:2.16.840.1.113883.2.4.4.8.13659847"/>
        <resource>
            <Medication>
                <meta>
                    <profile value="http://nictiz.nl/fhir/StructureDefinition/zib-Product"/>
                </meta>
                <code>
                    <coding>
                        <system value="urn:oid:2.16.840.1.113883.2.4.4.8"/>
                        <code value="13659847"/>
                        <display value="NUTRIDRINK AARDBEI NR16642"/>
                    </coding>
                    <coding>
                        <system value="urn:oid:2.16.840.1.113883.2.4.4.7"/>
                        <code value="710695"/>
                    </coding>
                </code>
            </Medication>
        </resource>
    </entry>
    <entry>
        <fullUrl value="urn:uuid:59eb216c-39d1-11e9-1996-020000000000"/>
        <resource>
            <MedicationDispense>
                <meta>
                    <profile value="http://nictiz.nl/fhir/StructureDefinition/mp612-DispenseToFHIRConversion-AdministrationAgreement"/>
                </meta>
                <extension url="http://nictiz.nl/fhir/StructureDefinition/zib-AdministrationAgreement-AuthoredOn">
                    <valueDateTime value="2016-04-24"/>
                </extension>
                <extension url="http://nictiz.nl/fhir/StructureDefinition/zib-MedicationUse-Duration">
                    <valueDuration>
                        <value value="40"/>
                        <unit value="dag"/>
                        <system value="http://unitsofmeasure.org"/>
                        <code value="d"/>
                    </valueDuration>
                </extension>
                <extension url="http://nictiz.nl/fhir/StructureDefinition/zib-Medication-MedicationTreatment">
                    <valueIdentifier>
                        <system value="urn:oid:2.16.840.1.113883.2.4.3.11.999.77.373784005.1"/>
                        <value value="e22b15e0-100a-11e5-b939-0800200c9a66"/>
                    </valueIdentifier>
                </extension>
                <category>
                    <coding>
                        <system value="http://snomed.info/sct"/>
                        <code value="422037009"/>
                        <display value="Provider medication administration instructions (procedure)"/>
                    </coding>
                    <text value="Toedieningsafspraak"/>
                </category>
                <medicationReference>
                    <reference value="urn:oid:2.16.840.1.113883.2.4.4.8.13659847"/>
                    <display value="NUTRIDRINK AARDBEI NR16642"/>
                </medicationReference>
                <subject>
                    <reference value="urn:uuid:59eb1f42-39d1-11e9-1996-020000000000"/>
                    <display value="Brooke B. van der Berken"/>
                </subject>
                <performer>
                    <actor>
                        <reference value="urn:oid:2.16.528.1.1007.3.3.1234567"/>
                        <display value="Organisatie met id '01234567' in identificerend systeem '2.16.528.1.1007.3.3'."/>
                    </actor>
                </performer>
                <dosageInstruction>
                    <text value="Gedurende 40 dagen, 3 maal per dag 1 Eetlepel (= 15ml)"/>
                    <timing>
                        <repeat>
                            <frequency value="3"/>
                            <period value="1"/>
                            <periodUnit value="d"/>
                        </repeat>
                    </timing>
                    <doseQuantity>
                        <value value="15"/>
                        <unit value="Milliliter"/>
                        <system value="urn:oid:2.16.840.1.113883.2.4.4.1.900.2"/>
                        <code value="233"/>
                    </doseQuantity>
                </dosageInstruction>
            </MedicationDispense>
        </resource>
    </entry>
    <entry>
        <fullUrl value="urn:uuid:59eb218b-39d1-11e9-1996-020000000000"/>
        <resource>
            <MedicationDispense>
                <meta>
                    <profile value="http://nictiz.nl/fhir/StructureDefinition/mp612-DispenseToFHIRConversion-Dispense"/>
                </meta>
                <extension url="http://nictiz.nl/fhir/StructureDefinition/zib-Dispense-RequestDate">
                    <valueDateTime value="2016-04-24"/>
                </extension>
                <extension url="http://nictiz.nl/fhir/StructureDefinition/zib-Medication-MedicationTreatment">
                    <valueIdentifier>
                        <system value="urn:oid:2.16.840.1.113883.2.4.3.11.999.77.373784005.1"/>
                        <value value="e22b15e0-100a-11e5-b939-0800200c9a66"/>
                    </valueIdentifier>
                </extension>
                <identifier>
                    <system value="urn:oid:2.16.840.1.113883.2.4.3.11.999.77.373784005.1"/>
                    <value value="e22b15e0-100a-11e5-b939-0800200c9a66"/>
                </identifier>
                <category>
                    <coding>
                        <system value="http://snomed.info/sct"/>
                        <code value="373784005"/>
                        <display value="Dispensing medication (procedure)"/>
                    </coding>
                    <text value="Medicatieverstrekking"/>
                </category>
                <medicationReference>
                    <reference value="urn:oid:2.16.840.1.113883.2.4.4.8.13659847"/>
                    <display value="NUTRIDRINK AARDBEI NR16642"/>
                </medicationReference>
                <subject>
                    <reference value="urn:uuid:59eb1f42-39d1-11e9-1996-020000000000"/>
                    <display value="Brooke B. van der Berken"/>
                </subject>
                <performer>
                    <actor>
                        <reference value="urn:oid:2.16.528.1.1007.3.3.1234567"/>
                        <display value="Organisatie met id '01234567' in identificerend systeem '2.16.528.1.1007.3.3'."/>
                    </actor>
                </performer>
                <quantity>
                    <value value="2000"/>
                    <unit value="Milliliter"/>
                    <system value="urn:oid:2.16.840.1.113883.2.4.4.1.900.2"/>
                    <code value="233"/>
                </quantity>
                <daysSupply>
                    <value value="44"/>
                    <unit value="dag"/>
                    <system value="http://unitsofmeasure.org"/>
                    <code value="d"/>
                </daysSupply>
                <whenHandedOver>
                    <extension url="http://hl7.org/fhir/StructureDefinition/iso21090-nullFlavor">
                        <valueCode value="NI"/>
                    </extension>
                </whenHandedOver>
            </MedicationDispense>
        </resource>
    </entry>
</Bundle>
