<?xml version="1.0" encoding="UTF-8"?>
<?xml-model href="http://hl7.org/fhir/STU3/bundle.sch" type="application/xml" schematypens="http://purl.oclc.org/dsdl/schematron"?>
<Bundle xmlns="http://hl7.org/fhir" xmlns:xsi="http://www.w3.org/2001/XMLSchema-instance" xsi:schemaLocation="http://hl7.org/fhir http://hl7.org/fhir/STU3/bundle.xsd">
    <type value="searchset"/>
    <total value="10"/>
    <entry>
        <fullUrl value="urn:uuid:598a61a2-39d1-11e9-1746-020000000000"/>
        <resource>
            <Patient>
                <meta>
                    <profile value="http://fhir.nl/fhir/StructureDefinition/nl-core-patient"/>
                </meta>
                <name>
                    <extension url="http://hl7.org/fhir/StructureDefinition/humanname-assembly-order">
                        <valueCode value="NL1"/>
                    </extension>
                    <family value="XXX_Bekker">
                        <extension url="http://hl7.org/fhir/StructureDefinition/humanname-own-name">
                            <valueString value="XXX_Bekker"/>
                        </extension>
                    </family>
                    <given value="Hanneke">
                        <extension url="http://hl7.org/fhir/StructureDefinition/iso21090-EN-qualifier">
                            <valueCode value="CL"/>
                        </extension>
                    </given>
                </name>
                <gender value="female"/>
                <birthDate value="1964-08-02"/>
            </Patient>
        </resource>
    </entry>
    <entry>
        <fullUrl value="urn:oid:2.16.528.1.1007.3.3.1234567"/>
        <resource>
            <Organization>
                <meta>
                    <profile value="http://fhir.nl/fhir/StructureDefinition/nl-core-organization"/>
                </meta>
                <identifier>
                    <system value="http://fhir.nl/fhir/NamingSystem/ura"/>
                    <value value="01234567"/>
                </identifier>
            </Organization>
        </resource>
    </entry>
    <entry>
        <fullUrl value="urn:oid:2.16.840.1.113883.2.4.4.8.15401367"/>
        <resource>
            <Medication>
                <meta>
                    <profile value="http://nictiz.nl/fhir/StructureDefinition/zib-Product"/>
                </meta>
                <code>
                    <coding>
                        <system value="urn:oid:2.16.840.1.113883.2.4.4.8"/>
                        <code value="15401367"/>
                        <display value="PARACETAMOL PCH TABLET 500MG"/>
                    </coding>
                </code>
            </Medication>
        </resource>
    </entry>
    <entry>
        <fullUrl value="urn:uuid:598a7948-39d1-11e9-1746-020000000000"/>
        <resource>
            <Medication>
                <meta>
                    <profile value="http://nictiz.nl/fhir/StructureDefinition/zib-Product"/>
                </meta>
                <extension url="http://nictiz.nl/fhir/StructureDefinition/zib-Product-Description">
                    <valueString value="Titel: Ureum 10% in eucerine cum aqua&#xA;                                        Regel: Ureum 10 gr &#xA;                                        Regel: Eucerine met water creme FNA ad 100g."/>
                </extension>
                <code>
                    <text value="Ureum 10% in eucerine cum aqua"/>
                </code>
                <ingredient>
                    <itemCodeableConcept>
                        <coding>
                            <system value="urn:oid:2.16.840.1.113883.2.4.4.8"/>
                            <code value="15219127"/>
                            <display value="UREUM"/>
                        </coding>
                    </itemCodeableConcept>
                    <isActive value="true"/>
                    <amount>
                        <numerator>
                            <value value="10"/>
                            <unit value="gram"/>
                            <system value="urn:oid:2.16.840.1.113883.2.4.4.1.900.2"/>
                            <code value="215"/>
                        </numerator>
                        <denominator>
                            <value value="100"/>
                            <unit value="gram"/>
                            <system value="urn:oid:2.16.840.1.113883.2.4.4.1.900.2"/>
                            <code value="215"/>
                        </denominator>
                    </amount>
                </ingredient>
                <ingredient>
                    <itemCodeableConcept>
                        <coding>
                            <system value="urn:oid:2.16.840.1.113883.2.4.4.8"/>
                            <code value="14740877"/>
                            <display value="EUCERINE MET WATER FAGRON"/>
                        </coding>
                    </itemCodeableConcept>
                    <isActive value="true"/>
                    <amount>
                        <numerator>
                            <extension url="http://hl7.org/fhir/StructureDefinition/iso21090-nullFlavor">
                                <valueCode value="QS"/>
                            </extension>
                        </numerator>
                        <denominator>
                            <value value="100"/>
                            <unit value="gram"/>
                            <system value="urn:oid:2.16.840.1.113883.2.4.4.1.900.2"/>
                            <code value="215"/>
                        </denominator>
                    </amount>
                </ingredient>
            </Medication>
        </resource>
    </entry>
    <entry>
        <fullUrl value="urn:uuid:598a63ca-39d1-11e9-1746-020000000000"/>
        <resource>
            <MedicationDispense>
                <meta>
                    <profile value="http://nictiz.nl/fhir/StructureDefinition/mp612-DispenseToFHIRConversion-AdministrationAgreement"/>
                </meta>
                <extension url="http://nictiz.nl/fhir/StructureDefinition/zib-AdministrationAgreement-AuthoredOn">
                    <valueDateTime value="2017-03-06"/>
                </extension>
                <extension url="http://nictiz.nl/fhir/StructureDefinition/zib-Medication-MedicationTreatment">
                    <valueIdentifier>
                        <system value="urn:oid:2.16.840.1.113883.2.4.3.11.999.77.373784005.1"/>
                        <value value="14606290-2dbd-11e8-b566-0800200c9a66"/>
                    </valueIdentifier>
                </extension>
                <category>
                    <coding>
                        <system value="http://snomed.info/sct"/>
                        <code value="422037009"/>
                        <display value="Provider medication administration instructions (procedure)"/>
                    </coding>
                    <text value="Toedieningsafspraak"/>
                </category>
                <medicationReference>
                    <reference value="urn:oid:2.16.840.1.113883.2.4.4.8.15401367"/>
                    <display value="PARACETAMOL PCH TABLET 500MG"/>
                </medicationReference>
                <subject>
                    <reference value="urn:uuid:598a61a2-39d1-11e9-1746-020000000000"/>
                    <display value="Hanneke XXX_Bekker"/>
                </subject>
                <performer>
                    <actor>
                        <reference value="urn:oid:2.16.528.1.1007.3.3.1234567"/>
                        <display value="Organisatie met id '01234567' in identificerend systeem '2.16.528.1.1007.3.3'."/>
                    </actor>
                </performer>
                <dosageInstruction>
                    <text value="Zo nodig bij pijn, maximaal 6 stuks per dag"/>
                    <asNeededCodeableConcept>
                        <coding>
                            <system value="https://referentiemodel.nhg.org/tabellen/nhg-tabel-25-gebruiksvoorschrift#aanvullend-numeriek"/>
                            <code value="1140"/>
                            <display value="zo nodig bij pijn"/>
                        </coding>
                    </asNeededCodeableConcept>
                    <maxDosePerPeriod>
                        <numerator>
                            <value value="6"/>
                            <unit value="stuk"/>
                            <system value="urn:oid:2.16.840.1.113883.2.4.4.1.900.2"/>
                            <code value="245"/>
                        </numerator>
                        <denominator>
                            <value value="1"/>
                            <unit value="dag"/>
                            <system value="http://unitsofmeasure.org"/>
                            <code value="d"/>
                        </denominator>
                    </maxDosePerPeriod>
                </dosageInstruction>
            </MedicationDispense>
        </resource>
    </entry>
    <entry>
        <fullUrl value="urn:uuid:598a63f9-39d1-11e9-1746-020000000000"/>
        <resource>
            <MedicationDispense>
                <meta>
                    <profile value="http://nictiz.nl/fhir/StructureDefinition/mp612-DispenseToFHIRConversion-AdministrationAgreement"/>
                </meta>
                <extension url="http://nictiz.nl/fhir/StructureDefinition/zib-AdministrationAgreement-AuthoredOn">
                    <valueDateTime value="2017-03-13"/>
                </extension>
                <extension url="http://nictiz.nl/fhir/StructureDefinition/zib-MedicationUse-Duration">
                    <valueDuration>
                        <value value="7"/>
                        <unit value="dag"/>
                        <system value="http://unitsofmeasure.org"/>
                        <code value="d"/>
                    </valueDuration>
                </extension>
                <extension url="http://nictiz.nl/fhir/StructureDefinition/zib-Medication-MedicationTreatment">
                    <valueIdentifier>
                        <system value="urn:oid:2.16.840.1.113883.2.4.3.11.999.77.373784005.1"/>
                        <value value="13438b70-2dbe-11e8-b566-0800200c9a66"/>
                    </valueIdentifier>
                </extension>
                <category>
                    <coding>
                        <system value="http://snomed.info/sct"/>
                        <code value="422037009"/>
                        <display value="Provider medication administration instructions (procedure)"/>
                    </coding>
                    <text value="Toedieningsafspraak"/>
                </category>
                <medicationReference>
                    <reference value="urn:oid:2.16.840.1.113883.2.4.4.8.15401367"/>
                    <display value="PARACETAMOL PCH TABLET 500MG"/>
                </medicationReference>
                <subject>
                    <reference value="urn:uuid:598a61a2-39d1-11e9-1746-020000000000"/>
                    <display value="Hanneke XXX_Bekker"/>
                </subject>
                <performer>
                    <actor>
                        <reference value="urn:oid:2.16.528.1.1007.3.3.1234567"/>
                        <display value="Organisatie met id '01234567' in identificerend systeem '2.16.528.1.1007.3.3'."/>
                    </actor>
                </performer>
                <dosageInstruction>
                    <text value="Gedurende 7 dagen, 1 keer per 4 uur 1 stuk"/>
                    <timing>
                        <repeat>
                            <frequency value="1"/>
                            <period value="4"/>
                            <periodUnit value="h"/>
                        </repeat>
                    </timing>
                    <doseQuantity>
                        <value value="1"/>
                        <unit value="stuk"/>
                        <system value="urn:oid:2.16.840.1.113883.2.4.4.1.900.2"/>
                        <code value="245"/>
                    </doseQuantity>
                </dosageInstruction>
            </MedicationDispense>
        </resource>
    </entry>
    <entry>
        <fullUrl value="urn:uuid:598a793f-39d1-11e9-1746-020000000000"/>
        <resource>
            <MedicationDispense>
                <meta>
                    <profile value="http://nictiz.nl/fhir/StructureDefinition/mp612-DispenseToFHIRConversion-AdministrationAgreement"/>
                </meta>
                <extension url="http://nictiz.nl/fhir/StructureDefinition/zib-AdministrationAgreement-AuthoredOn">
                    <valueDateTime value="2018-03-13"/>
                </extension>
                <extension url="http://nictiz.nl/fhir/StructureDefinition/zib-Medication-MedicationTreatment">
                    <valueIdentifier>
                        <system value="urn:oid:2.16.840.1.113883.2.4.3.11.999.77.373784005.1"/>
                        <value value="a083ca80-5772-11e8-b566-0800200c9a66"/>
                    </valueIdentifier>
                </extension>
                <category>
                    <coding>
                        <system value="http://snomed.info/sct"/>
                        <code value="422037009"/>
                        <display value="Provider medication administration instructions (procedure)"/>
                    </coding>
                    <text value="Toedieningsafspraak"/>
                </category>
                <medicationReference>
                    <reference value="urn:uuid:598a7948-39d1-11e9-1746-020000000000"/>
                    <display value="overig"/>
                </medicationReference>
                <subject>
                    <reference value="urn:uuid:598a61a2-39d1-11e9-1746-020000000000"/>
                    <display value="Hanneke XXX_Bekker"/>
                </subject>
                <performer>
                    <actor>
                        <reference value="urn:oid:2.16.528.1.1007.3.3.1234567"/>
                        <display value="Organisatie met id '01234567' in identificerend systeem '2.16.528.1.1007.3.3'."/>
                    </actor>
                </performer>
                <dosageInstruction>
                    <text value="Zo nodig"/>
                    <asNeededCodeableConcept>
                        <coding>
                            <system value="https://referentiemodel.nhg.org/tabellen/nhg-tabel-25-gebruiksvoorschrift#aanvullend-numeriek"/>
                            <code value="1137"/>
                            <display value="zo nodig"/>
                        </coding>
                    </asNeededCodeableConcept>
                </dosageInstruction>
            </MedicationDispense>
        </resource>
    </entry>
    <entry>
        <fullUrl value="urn:uuid:598a63e9-39d1-11e9-1746-020000000000"/>
        <resource>
            <MedicationDispense>
                <meta>
                    <profile value="http://nictiz.nl/fhir/StructureDefinition/mp612-DispenseToFHIRConversion-Dispense"/>
                </meta>
                <extension url="http://nictiz.nl/fhir/StructureDefinition/zib-Dispense-RequestDate">
                    <valueDateTime value="2017-03-06"/>
                </extension>
                <extension url="http://nictiz.nl/fhir/StructureDefinition/zib-Medication-MedicationTreatment">
                    <valueIdentifier>
                        <system value="urn:oid:2.16.840.1.113883.2.4.3.11.999.77.373784005.1"/>
                        <value value="14606290-2dbd-11e8-b566-0800200c9a66"/>
                    </valueIdentifier>
                </extension>
                <identifier>
                    <system value="urn:oid:2.16.840.1.113883.2.4.3.11.999.77.373784005.1"/>
                    <value value="14606290-2dbd-11e8-b566-0800200c9a66"/>
                </identifier>
                <category>
                    <coding>
                        <system value="http://snomed.info/sct"/>
                        <code value="373784005"/>
                        <display value="Dispensing medication (procedure)"/>
                    </coding>
                    <text value="Medicatieverstrekking"/>
                </category>
                <medicationReference>
                    <reference value="urn:oid:2.16.840.1.113883.2.4.4.8.15401367"/>
                    <display value="PARACETAMOL PCH TABLET 500MG"/>
                </medicationReference>
                <subject>
                    <reference value="urn:uuid:598a61a2-39d1-11e9-1746-020000000000"/>
                    <display value="Hanneke XXX_Bekker"/>
                </subject>
                <performer>
                    <actor>
                        <reference value="urn:oid:2.16.528.1.1007.3.3.1234567"/>
                        <display value="Organisatie met id '01234567' in identificerend systeem '2.16.528.1.1007.3.3'."/>
                    </actor>
                </performer>
                <quantity>
                    <value value="20"/>
                    <unit value="stuk"/>
                    <system value="urn:oid:2.16.840.1.113883.2.4.4.1.900.2"/>
                    <code value="245"/>
                </quantity>
                <whenHandedOver>
                    <extension url="http://hl7.org/fhir/StructureDefinition/iso21090-nullFlavor">
                        <valueCode value="NI"/>
                    </extension>
                </whenHandedOver>
            </MedicationDispense>
        </resource>
    </entry>
    <entry>
        <fullUrl value="urn:uuid:598a6417-39d1-11e9-1746-020000000000"/>
        <resource>
            <MedicationDispense>
                <meta>
                    <profile value="http://nictiz.nl/fhir/StructureDefinition/mp612-DispenseToFHIRConversion-Dispense"/>
                </meta>
                <extension url="http://nictiz.nl/fhir/StructureDefinition/zib-Dispense-RequestDate">
                    <valueDateTime value="2017-03-13"/>
                </extension>
                <extension url="http://nictiz.nl/fhir/StructureDefinition/zib-Medication-MedicationTreatment">
                    <valueIdentifier>
                        <system value="urn:oid:2.16.840.1.113883.2.4.3.11.999.77.373784005.1"/>
                        <value value="13438b70-2dbe-11e8-b566-0800200c9a66"/>
                    </valueIdentifier>
                </extension>
                <identifier>
                    <system value="urn:oid:2.16.840.1.113883.2.4.3.11.999.77.373784005.1"/>
                    <value value="13438b70-2dbe-11e8-b566-0800200c9a66"/>
                </identifier>
                <category>
                    <coding>
                        <system value="http://snomed.info/sct"/>
                        <code value="373784005"/>
                        <display value="Dispensing medication (procedure)"/>
                    </coding>
                    <text value="Medicatieverstrekking"/>
                </category>
                <medicationReference>
                    <reference value="urn:oid:2.16.840.1.113883.2.4.4.8.15401367"/>
                    <display value="PARACETAMOL PCH TABLET 500MG"/>
                </medicationReference>
                <subject>
                    <reference value="urn:uuid:598a61a2-39d1-11e9-1746-020000000000"/>
                    <display value="Hanneke XXX_Bekker"/>
                </subject>
                <performer>
                    <actor>
                        <reference value="urn:oid:2.16.528.1.1007.3.3.1234567"/>
                        <display value="Organisatie met id '01234567' in identificerend systeem '2.16.528.1.1007.3.3'."/>
                    </actor>
                </performer>
                <quantity>
                    <value value="40"/>
                    <unit value="stuk"/>
                    <system value="urn:oid:2.16.840.1.113883.2.4.4.1.900.2"/>
                    <code value="245"/>
                </quantity>
                <whenHandedOver>
                    <extension url="http://hl7.org/fhir/StructureDefinition/iso21090-nullFlavor">
                        <valueCode value="NI"/>
                    </extension>
                </whenHandedOver>
            </MedicationDispense>
        </resource>
    </entry>
    <entry>
        <fullUrl value="urn:uuid:598a796e-39d1-11e9-1746-020000000000"/>
        <resource>
            <MedicationDispense>
                <meta>
                    <profile value="http://nictiz.nl/fhir/StructureDefinition/mp612-DispenseToFHIRConversion-Dispense"/>
                </meta>
                <extension url="http://nictiz.nl/fhir/StructureDefinition/zib-Dispense-RequestDate">
                    <valueDateTime value="2018-03-13"/>
                </extension>
                <extension url="http://nictiz.nl/fhir/StructureDefinition/zib-Medication-MedicationTreatment">
                    <valueIdentifier>
                        <system value="urn:oid:2.16.840.1.113883.2.4.3.11.999.77.373784005.1"/>
                        <value value="a083ca80-5772-11e8-b566-0800200c9a66"/>
                    </valueIdentifier>
                </extension>
                <identifier>
                    <system value="urn:oid:2.16.840.1.113883.2.4.3.11.999.77.373784005.1"/>
                    <value value="a083ca80-5772-11e8-b566-0800200c9a66"/>
                </identifier>
                <category>
                    <coding>
                        <system value="http://snomed.info/sct"/>
                        <code value="373784005"/>
                        <display value="Dispensing medication (procedure)"/>
                    </coding>
                    <text value="Medicatieverstrekking"/>
                </category>
                <medicationReference>
                    <reference value="urn:uuid:598a7948-39d1-11e9-1746-020000000000"/>
                    <display value="overig"/>
                </medicationReference>
                <subject>
                    <reference value="urn:uuid:598a61a2-39d1-11e9-1746-020000000000"/>
                    <display value="Hanneke XXX_Bekker"/>
                </subject>
                <performer>
                    <actor>
                        <reference value="urn:oid:2.16.528.1.1007.3.3.1234567"/>
                        <display value="Organisatie met id '01234567' in identificerend systeem '2.16.528.1.1007.3.3'."/>
                    </actor>
                </performer>
                <quantity>
                    <value value="100"/>
                    <unit value="gram"/>
                    <system value="urn:oid:2.16.840.1.113883.2.4.4.1.900.2"/>
                    <code value="215"/>
                </quantity>
                <whenHandedOver>
                    <extension url="http://hl7.org/fhir/StructureDefinition/iso21090-nullFlavor">
                        <valueCode value="NI"/>
                    </extension>
                </whenHandedOver>
            </MedicationDispense>
        </resource>
    </entry>
</Bundle>
