<?xml-model href="http://hl7.org/fhir/STU3/bundle.sch" type="application/xml" schematypens="http://purl.oclc.org/dsdl/schematron"?>
<Bundle xmlns="http://hl7.org/fhir" xmlns:xsi="http://www.w3.org/2001/XMLSchema-instance" xsi:schemaLocation="http://hl7.org/fhir http://hl7.org/fhir/STU3/bundle.xsd">
    <type value="searchset"/>
    <total value="5"/>
    <entry>
        <fullUrl value="urn:uuid:f7bc5e6c-cb20-11e9-1118-020000000000"/>
        <resource>
            <Patient>
                <meta>
                    <profile value="http://nictiz.nl/fhir/StructureDefinition/mp612-DispenseToFHIRConversion-Patient"/>
                </meta>
                <identifier>
                    <system value="http://fhir.nl/fhir/NamingSystem/bsn"/>
                    <value>
                        <extension url="http://hl7.org/fhir/StructureDefinition/data-absent-reason">
                            <valueCode value="masked"/>
                        </extension>
                    </value>
                </identifier>
                <name>
                    <extension url="http://hl7.org/fhir/StructureDefinition/humanname-assembly-order">
                        <valueCode value="NL1"/>
                    </extension>
                    <family value="van Henegouwen">
                        <extension url="http://hl7.org/fhir/StructureDefinition/humanname-own-prefix">
                            <valueString value="van"/>
                        </extension>
                        <extension url="http://hl7.org/fhir/StructureDefinition/humanname-own-name">
                            <valueString value="Henegouwen"/>
                        </extension>
                    </family>
                    <given value="Richard">
                        <extension url="http://hl7.org/fhir/StructureDefinition/iso21090-EN-qualifier">
                            <valueCode value="BR"/>
                        </extension>
                    </given>
                    <given value="R.">
                        <extension url="http://hl7.org/fhir/StructureDefinition/iso21090-EN-qualifier">
                            <valueCode value="IN"/>
                        </extension>
                    </given>
                </name>
                <gender value="male"/>
                <birthDate value="1950-02-20"/>
            </Patient>
        </resource>
    </entry>
    <entry>
        <fullUrl value="urn:oid:2.16.528.1.1007.3.3.1234567"/>
        <resource>
            <Organization>
                <meta>
                    <profile value="http://nictiz.nl/fhir/StructureDefinition/mp612-DispenseToFHIRConversion-Organization"/>
                </meta>
                <identifier>
                    <system value="http://fhir.nl/fhir/NamingSystem/ura"/>
                    <value value="01234567"/>
                </identifier>
            </Organization>
        </resource>
    </entry>
    <entry>
        <fullUrl value="urn:oid:2.16.840.1.113883.2.4.4.8.14234785"/>
        <resource>
            <Medication>
                <meta>
                    <profile value="http://nictiz.nl/fhir/StructureDefinition/mp612-DispenseToFHIRConversion-Product"/>
                </meta>
                <code>
                    <coding>
                        <system value="urn:oid:2.16.840.1.113883.2.4.4.8"/>
                        <code value="14234785"/>
                        <display value="MEBENDAZOL SAN TABLET 100MG"/>
                        <userSelected value="true"/>
                    </coding>
                    <coding>
                        <system value="urn:oid:2.16.840.1.113883.2.4.4.7"/>
                        <code value="1046764"/>
                    </coding>
                    <coding>
                        <system value="urn:oid:2.16.840.1.113883.2.4.4.1"/>
                        <code value="9954"/>
                    </coding>
                </code>
            </Medication>
        </resource>
    </entry>
    <entry>
        <fullUrl value="urn:uuid:f7bc60f0-cb20-11e9-1118-020000000000"/>
        <resource>
            <MedicationDispense>
                <meta>
                    <profile value="http://nictiz.nl/fhir/StructureDefinition/mp612-DispenseToFHIRConversion-AdministrationAgreement"/>
                </meta>
                <extension url="http://nictiz.nl/fhir/StructureDefinition/zib-AdministrationAgreement-AuthoredOn">
                    <valueDateTime value="2007-12-08"/>
                </extension>
                <extension url="http://nictiz.nl/fhir/StructureDefinition/zib-Medication-MedicationTreatment">
                    <valueIdentifier>
                        <system value="urn:oid:2.16.840.1.113883.2.4.3.11.999.77.373784005.1"/>
                        <value value="38129f10-100a-11e5-b939-0800200c9a66"/>
                    </valueIdentifier>
                </extension>
                <category>
                    <coding>
                        <system value="http://snomed.info/sct"/>
                        <code value="422037009"/>
                        <display value="Provider medication administration instructions (procedure)"/>
                    </coding>
                    <text value="Toedieningsafspraak"/>
                </category>
                <medicationReference>
                    <reference value="urn:oid:2.16.840.1.113883.2.4.4.8.14234785"/>
                    <display value="MEBENDAZOL SAN TABLET 100MG"/>
                </medicationReference>
                <subject>
                    <reference value="urn:uuid:f7bc5e6c-cb20-11e9-1118-020000000000"/>
                    <display value="Richard R. van Henegouwen"/>
                </subject>
                <performer>
                    <actor>
                        <reference value="urn:oid:2.16.528.1.1007.3.3.1234567"/>
                        <display value="Organisatie met id '01234567' in identificerend systeem '2.16.528.1.1007.3.3'."/>
                    </actor>
                </performer>
                <dosageInstruction>
                    <text value="Gebruik bekend"/>
                </dosageInstruction>
            </MedicationDispense>
        </resource>
    </entry>
    <entry>
        <fullUrl value="urn:uuid:38129f10-100a-11e5-b939-0800200c9a66"/>
        <resource>
            <MedicationDispense>
                <meta>
                    <profile value="http://nictiz.nl/fhir/StructureDefinition/mp612-DispenseToFHIRConversion-Dispense"/>
                </meta>
                <extension url="http://nictiz.nl/fhir/StructureDefinition/zib-Dispense-RequestDate">
                    <valueDateTime value="2007-12-08"/>
                </extension>
                <extension url="http://nictiz.nl/fhir/StructureDefinition/zib-Medication-MedicationTreatment">
                    <valueIdentifier>
                        <system value="urn:oid:2.16.840.1.113883.2.4.3.11.999.77.373784005.1"/>
                        <value value="38129f10-100a-11e5-b939-0800200c9a66"/>
                    </valueIdentifier>
                </extension>
                <identifier>
                    <system value="urn:oid:2.16.840.1.113883.2.4.3.11.999.77.373784005.1"/>
                    <value value="38129f10-100a-11e5-b939-0800200c9a66"/>
                </identifier>
                <category>
                    <coding>
                        <system value="http://snomed.info/sct"/>
                        <code value="373784005"/>
                        <display value="Dispensing medication (procedure)"/>
                    </coding>
                    <text value="Medicatieverstrekking"/>
                </category>
                <medicationReference>
                    <reference value="urn:oid:2.16.840.1.113883.2.4.4.8.14234785"/>
                    <display value="MEBENDAZOL SAN TABLET 100MG"/>
                </medicationReference>
                <subject>
                    <reference value="urn:uuid:f7bc5e6c-cb20-11e9-1118-020000000000"/>
                    <display value="Richard R. van Henegouwen"/>
                </subject>
                <performer>
                    <actor>
                        <reference value="urn:oid:2.16.528.1.1007.3.3.1234567"/>
                        <display value="Organisatie met id '01234567' in identificerend systeem '2.16.528.1.1007.3.3'."/>
                    </actor>
                </performer>
                <quantity>
                    <value value="2"/>
                    <unit value="Stuk"/>
                    <system value="urn:oid:2.16.840.1.113883.2.4.4.1.900.2"/>
                    <code value="245"/>
                </quantity>
                <whenHandedOver>
                    <extension url="http://hl7.org/fhir/StructureDefinition/iso21090-nullFlavor">
                        <valueCode value="NI"/>
                    </extension>
                </whenHandedOver>
            </MedicationDispense>
        </resource>
    </entry>
</Bundle>
